File: Implementing a CNN on Nvidia Kepler GPU/Code/images/xrd
-0.5
  -0.5
  -0.5
  -0.5
  -0.5
  -0.5
  -0.5
  -0.5
  -0.5
  -0.5
  -0.5
  -0.5
  -0.5
  -0.5
  -0.5
  -0.5
  -0.5
  -0.5
  -0.5
  -0.5
  -0.5
  -0.5
  -0.5
  -0.5
  -0.5
  -0.5
  -0.5
  -0.5
 -0.5
  -0.5
  -0.5
  -0.5
  -0.5
  -0.5
  -0.5
  -0.5
  -0.5
  -0.5
  -0.5
  -0.5
  -0.5
  -0.5
  -0.5
  -0.5
  -0.5
  -0.5
  -0.5
  -0.5
  -0.5
  -0.5
  -0.5
  -0.5
  -0.5
  -0.5
  -0.5
  -0.5
 -0.5
  -0.5
  -0.5
  -0.5
  -0.5
  -0.5
  -0.5
  -0.5
  -0.5
  -0.5
  -0.5
  -0.5
  -0.5
  -0.5
  -0.5
  -0.5
  -0.5
  -0.5
  -0.5
  -0.5
  -0.5
  -0.5
  -0.5
  -0.5
  -0.5
  -0.5
  -0.5
  -0.5
 -0.5
  -0.5
  -0.5
  -0.5
  -0.5
  -0.5
  -0.5
  -0.5
  -0.5
  -0.5
  -0.5
  -0.5
  -0.5
  -0.5
  -0.5
  -0.5
  -0.5
  -0.5
  -0.5
  -0.5
  -0.5
  -0.5
  -0.5
  -0.5
  -0.5
  -0.5
  -0.5
  -0.5
 -0.5
  -0.5
  -0.5
  -0.5
  -0.5
  -0.5
  -0.5
  -0.5
  -0.5
  -0.5
  -0.5
  -0.5
  -0.5
  -0.5
  -0.5
  -0.5
  -0.5
  -0.5
  -0.5
  -0.5
  -0.5
  -0.5
  -0.5
  -0.5
  -0.5
  -0.5
  -0.5
  -0.5
 -0.5
  -0.5
  -0.5
  -0.5
  -0.5
  -0.5
  -0.5
  -0.5
  -0.5
  -0.5
  -0.5
  -0.06862745
  -0.5
  -0.5
  -0.5
  -0.5
  -0.5
  -0.5
  -0.5
  -0.5
  -0.5
  -0.5
  -0.5
  -0.5
  -0.5
  -0.5
  -0.5
  -0.5
 -0.5
  -0.5
  -0.5
  -0.5
  -0.5
  -0.5
  -0.5
  -0.5
  -0.5
  -0.456863
   0.07647059
   0.205882
  -0.5
  -0.5
  -0.5
  -0.5
  -0.5
  -0.5
  -0.5
  -0.5
  -0.5
  -0.5
  -0.5
  -0.5
  -0.5
  -0.5
  -0.5
  -0.5
 -0.5
  -0.5
  -0.5
  -0.5
  -0.5
  -0.5
  -0.5
  -0.5
  -0.5
  -0.327451
   0.492157
  -0.296078
  -0.5
  -0.5
  -0.5
  -0.5
  -0.5
  -0.5
  -0.5
  -0.5
  -0.5
  -0.5
  -0.5
  -0.5
  -0.5
  -0.5
  -0.5
  -0.5
 -0.5
  -0.5
  -0.5
  -0.5
  -0.5
  -0.5
  -0.5
  -0.5
  -0.5
   0.2372549
   0.319608
  -0.331373
  -0.5
  -0.5
  -0.5
  -0.5
  -0.5
  -0.5
  -0.5
  -0.5
  -0.5
  -0.5
  -0.5
  -0.5
  -0.5
  -0.5
  -0.5
  -0.5
 -0.5
  -0.5
  -0.5
  -0.5
  -0.5
  -0.5
  -0.5
  -0.5
  -0.229412
   0.252941
  -0.5
  -0.5
  -0.5
  -0.5
  -0.5
  -0.5
  -0.362745
  -0.3
  -0.5
  -0.245098
  -0.01372549
  -0.01372549
  -0.01372549
  -0.198039
  -0.5
  -0.5
  -0.5
  -0.5
 -0.5
  -0.5
  -0.5
  -0.5
  -0.5
  -0.5
  -0.5
  -0.5
   0.04901961
   0.245098
  -0.5
  -0.5
  -0.5
  -0.398039
   0.292157
   0.292157
   0.347059
   0.37451
   0.268627
   0.347059
   0.492157
   0.492157
   0.492157
   0.4137255
   0.292157
  -0.5
  -0.5
  -0.5
 -0.5
  -0.5
  -0.5
  -0.5
  -0.5
  -0.5
  -0.5
  -0.398039
   0.233333
  -0.366667
  -0.296078
  -0.4137255
  -0.5
   0.221569
   0.347059
   0.3509804
   0.492157
   0.492157
   0.00196078
   0.01372549
   0.492157
   0.492157
   0.492157
   0.492157
   0.201961
  -0.5
  -0.5
  -0.5
 -0.5
  -0.5
  -0.5
  -0.5
  -0.5
  -0.5
  -0.5
   0.241176
   0.492157
   0.233333
   0.3509804
  -0.296078
  -0.5
   0.17451
  -0.323529
  -0.319608
  -0.229412
  -0.229412
  -0.472549
  -0.358824
   0.343137
   0.472549
   0.492157
   0.213725
  -0.417647
  -0.5
  -0.5
  -0.5
 -0.5
  -0.5
  -0.5
  -0.5
  -0.5
  -0.5
  -0.284314
   0.44902
   0.3
  -0.3
   0.147059
  -0.366667
  -0.5
  -0.5
  -0.5
  -0.5
  -0.5
  -0.5
  -0.5
  -0.5
  -0.44902
   0.135294
   0.492157
   0.111765
  -0.5
  -0.5
  -0.5
  -0.5
 -0.5
  -0.5
  -0.5
  -0.5
  -0.5
  -0.5
   0.119608
   0.492157
  -0.05686275
  -0.5
  -0.5
  -0.5
  -0.5
  -0.5
  -0.5
  -0.5
  -0.5
  -0.5
  -0.5
  -0.5
  -0.358824
   0.492157
   0.492157
   0.111765
  -0.5
  -0.5
  -0.5
  -0.5
 -0.5
  -0.5
  -0.5
  -0.5
  -0.5
  -0.00588235
   0.480392
   0.256863
  -0.484314
  -0.5
  -0.5
  -0.5
  -0.5
  -0.5
  -0.5
  -0.5
  -0.5
  -0.5
  -0.5
   0.00196078
   0.468627
   0.05686275
  -0.468627
  -0.480392
  -0.5
  -0.5
  -0.5
  -0.5
 -0.5
  -0.5
  -0.5
  -0.5
  -0.5
   0.496078
   0.492157
   0.24902
  -0.5
  -0.5
  -0.5
  -0.5
  -0.5
  -0.5
  -0.5
  -0.5
  -0.5
  -0.5
   0.0254902
   0.296078
   0.00196078
  -0.2764706
  -0.5
  -0.5
  -0.5
  -0.5
  -0.5
  -0.5
 -0.5
  -0.5
  -0.5
  -0.5
  -0.5
   0.5
   0.492157
   0.3
  -0.405882
  -0.5
  -0.5
  -0.5
  -0.5
  -0.5
  -0.5
  -0.5
  -0.296078
   0.111765
   0.480392
   0.382353
  -0.366667
  -0.5
  -0.5
  -0.5
  -0.5
  -0.5
  -0.5
  -0.5
 -0.5
  -0.5
  -0.5
  -0.5
  -0.5
   0.496078
   0.492157
   0.492157
   0.2254902
  -0.429412
  -0.5
  -0.5
  -0.5
  -0.5
  -0.319608
   0.01372549
   0.476471
   0.186275
  -0.02156863
  -0.268627
  -0.5
  -0.5
  -0.5
  -0.5
  -0.5
  -0.5
  -0.5
  -0.5
 -0.5
  -0.5
  -0.5
  -0.5
  -0.5
   0.358824
   0.441176
   0.492157
   0.492157
   0.229412
  -0.358824
   0.186275
   0.327451
   0.327451
   0.382353
  -0.04901961
  -0.331373
  -0.429412
  -0.5
  -0.5
  -0.5
  -0.5
  -0.5
  -0.5
  -0.5
  -0.5
  -0.5
  -0.5
 -0.5
  -0.5
  -0.5
  -0.5
  -0.5
  -0.5
   0.119608
   0.07254902
   0.292157
   0.492157
   0.492157
   0.492157
   0.492157
   0.476471
   0.04117647
  -0.311765
  -0.5
  -0.5
  -0.5
  -0.5
  -0.5
  -0.5
  -0.5
  -0.5
  -0.5
  -0.5
  -0.5
  -0.5
 -0.5
  -0.5
  -0.5
  -0.5
  -0.5
  -0.5
  -0.3509804
  -0.484314
  -0.366667
   0.331373
   0.421569
   0.421569
   0.421569
  -0.08431373
  -0.5
  -0.5
  -0.5
  -0.5
  -0.5
  -0.5
  -0.5
  -0.5
  -0.5
  -0.5
  -0.5
  -0.5
  -0.5
  -0.5
 -0.5
  -0.5
  -0.5
  -0.5
  -0.5
  -0.5
  -0.5
  -0.5
  -0.5
  -0.5
  -0.5
  -0.5
  -0.5
  -0.5
  -0.5
  -0.5
  -0.5
  -0.5
  -0.5
  -0.5
  -0.5
  -0.5
  -0.5
  -0.5
  -0.5
  -0.5
  -0.5
  -0.5
 -0.5
  -0.5
  -0.5
  -0.5
  -0.5
  -0.5
  -0.5
  -0.5
  -0.5
  -0.5
  -0.5
  -0.5
  -0.5
  -0.5
  -0.5
  -0.5
  -0.5
  -0.5
  -0.5
  -0.5
  -0.5
  -0.5
  -0.5
  -0.5
  -0.5
  -0.5
  -0.5
  -0.5
 -0.5
  -0.5
  -0.5
  -0.5
  -0.5
  -0.5
  -0.5
  -0.5
  -0.5
  -0.5
  -0.5
  -0.5
  -0.5
  -0.5
  -0.5
  -0.5
  -0.5
  -0.5
  -0.5
  -0.5
  -0.5
  -0.5
  -0.5
  -0.5
  -0.5
  -0.5
  -0.5
  -0.5
 -0.5
  -0.5
  -0.5
  -0.5
  -0.5
  -0.5
  -0.5
  -0.5
  -0.5
  -0.5
  -0.5
  -0.5
  -0.5
  -0.5
  -0.5
  -0.5
  -0.5
  -0.5
  -0.5
  -0.5
  -0.5
  -0.5
  -0.5
  -0.5
  -0.5
  -0.5
  -0.5
  -0.5
 -0.5
  -0.5
  -0.5
  -0.5
  -0.5
  -0.5
  -0.5
  -0.5
  -0.5
  -0.5
  -0.5
  -0.5
  -0.5
  -0.5
  -0.5
  -0.5
  -0.5
  -0.5
  -0.5
  -0.5
  -0.5
  -0.5
  -0.5
  -0.5
  -0.5
  -0.5
  -0.5
  -0.5
 -0.5
  -0.5
  -0.5
  -0.5
  -0.5
  -0.5
  -0.5
  -0.5
  -0.5
  -0.5
  -0.5
  -0.5
  -0.5
  -0.5
  -0.5
  -0.5
  -0.5
  -0.5
  -0.5
  -0.5
  -0.5
  -0.5
  -0.5
  -0.5
  -0.5
  -0.5
  -0.5
  -0.5